File: Stock/TGA.tsv
20170103	1.64	1.73	1.60	1.73	255000
20170104	1.71	1.76	1.69	1.74	130800
20170105	1.76	1.79	1.71	1.74	143100
20170106	1.73	1.76	1.70	1.70	115300
20170109	1.70	1.70	1.64	1.65	70000
20170110	1.66	1.70	1.64	1.68	114100
20170111	1.68	1.75	1.65	1.72	113900
20170112	1.70	1.73	1.66	1.68	32200
20170113	1.65	1.69	1.65	1.68	42200
20170117	1.68	1.76	1.66	1.70	64800
20170118	1.68	1.68	1.63	1.63	35400
20170119	1.64	1.65	1.62	1.63	44600
20170120	1.65	1.66	1.63	1.65	48900
20170123	1.63	1.65	1.61	1.62	71900
20170124	1.62	1.66	1.62	1.65	251400
20170125	1.66	1.71	1.63	1.64	95100
20170126	1.65	1.70	1.65	1.68	86100
20170127	1.67	1.69	1.64	1.65	36000
20170130	1.64	1.64	1.55	1.57	193500
20170131	1.65	1.65	1.57	1.59	139100
20170201	1.64	1.66	1.60	1.63	106900
20170202	1.65	1.65	1.62	1.63	71500
20170203	1.64	1.68	1.63	1.63	52500
20170206	1.63	1.64	1.57	1.60	109600
20170207	1.60	1.65	1.58	1.61	60400
20170208	1.59	1.65	1.56	1.57	56600
20170209	1.58	1.58	1.52	1.55	227900
20170210	1.61	1.73	1.61	1.69	409300
20170213	1.60	1.75	1.60	1.74	93600
20170214	1.75	1.75	1.65	1.69	210400
20170215	1.70	1.71	1.63	1.65	101000
20170216	1.65	1.70	1.64	1.64	62700
20170217	1.64	1.67	1.63	1.65	81400
20170221	1.67	1.71	1.66	1.66	95500
20170222	1.67	1.68	1.61	1.61	118000
20170223	1.63	1.65	1.56	1.58	181600
20170224	1.59	1.61	1.55	1.56	153400
20170227	1.58	1.59	1.55	1.59	65600
20170228	1.56	1.60	1.52	1.54	106200
20170301	1.56	1.62	1.56	1.61	112700
20170302	1.58	1.59	1.54	1.56	84800
20170303	1.59	1.59	1.52	1.53	145600
20170306	1.51	1.55	1.49	1.50	80500
20170307	1.49	1.52	1.49	1.51	91600
20170308	1.49	1.52	1.47	1.50	230600
20170309	1.50	1.51	1.48	1.48	95500
20170310	1.51	1.55	1.50	1.55	47000
20170313	1.56	1.56	1.48	1.50	61100
20170314	1.49	1.51	1.45	1.47	215700
20170315	1.42	1.48	1.42	1.47	196800
20170316	1.47	1.50	1.42	1.46	119300
20170317	1.48	1.57	1.47	1.51	137300
20170320	1.50	1.50	1.41	1.48	128100
20170321	1.48	1.48	1.43	1.44	34600
20170322	1.45	1.45	1.40	1.42	144900
20170323	1.43	1.45	1.39	1.42	91100
20170324	1.46	1.47	1.42	1.42	66400
20170327	1.40	1.43	1.38	1.41	127500
20170328	1.42	1.48	1.41	1.46	60000
20170329	1.44	1.54	1.43	1.53	96200
20170330	1.54	1.54	1.48	1.50	43200
20170331	1.49	1.52	1.48	1.48	150800
20170403	1.47	1.49	1.46	1.48	100200
20170404	1.51	1.51	1.48	1.49	91100
20170405	1.51	1.53	1.48	1.49	47400
20170406	1.48	1.54	1.48	1.51	73500
20170407	1.51	1.51	1.48	1.49	25700
20170410	1.51	1.54	1.51	1.52	71300
20170411	1.53	1.55	1.51	1.53	75500
20170412	1.52	1.55	1.52	1.55	75200
20170413	1.56	1.56	1.48	1.48	58800
20170417	1.48	1.49	1.45	1.45	70700
20170418	1.42	1.47	1.42	1.43	19700
20170419	1.46	1.46	1.42	1.42	44500
20170420	1.48	1.49	1.43	1.45	35700
20170421	1.46	1.49	1.39	1.45	119700
20170424	1.45	1.46	1.41	1.41	32200
20170425	1.41	1.45	1.39	1.44	54000
20170426	1.44	1.44	1.40	1.42	51900
20170427	1.41	1.44	1.38	1.43	78400
20170428	1.43	1.43	1.38	1.38	80400
20170501	1.37	1.42	1.37	1.40	50600
20170502	1.40	1.41	1.37	1.37	54600
20170503	1.38	1.39	1.36	1.36	35800
20170504	1.34	1.36	1.30	1.30	134900
20170505	1.30	1.33	1.30	1.32	42100
20170508	1.31	1.43	1.31	1.39	101100
20170509	1.38	1.39	1.33	1.35	50000
20170510	1.35	1.41	1.35	1.38	82400
20170511	1.34	1.43	1.34	1.43	95800
20170512	1.44	1.46	1.40	1.42	84800
20170515	1.43	1.61	1.42	1.53	157800
20170516	1.51	1.56	1.50	1.53	59600
20170517	1.55	1.56	1.45	1.46	36400
20170518	1.46	1.51	1.45	1.51	34100
20170519	1.51	1.54	1.49	1.51	22900
20170522	1.56	1.56	1.48	1.51	43200
20170523	1.55	1.55	1.43	1.48	77000
20170524	1.48	1.50	1.47	1.49	81500
20170525	1.49	1.49	1.38	1.40	208200
20170526	1.42	1.44	1.40	1.41	43300
20170530	1.40	1.41	1.35	1.36	48600
20170531	1.36	1.38	1.32	1.36	144700
20170601	1.40	1.41	1.37	1.37	135900
20170602	1.34	1.37	1.33	1.36	47300
20170605	1.36	1.38	1.31	1.33	82900
20170606	1.32	1.35	1.30	1.33	151700
20170607	1.31	1.33	1.29	1.31	102200
20170608	1.31	1.32	1.28	1.29	110700
20170609	1.29	1.32	1.28	1.30	61400
20170612	1.32	1.32	1.26	1.26	104000
20170613	1.27	1.30	1.23	1.26	125100
20170614	1.27	1.28	1.17	1.20	143700
20170615	1.18	1.20	1.14	1.15	156400
20170616	1.16	1.23	1.14	1.21	106100
20170619	1.21	1.31	1.21	1.26	223200
20170620	1.25	1.26	1.18	1.24	70100
20170621	1.24	1.26	1.15	1.15	109000
20170622	1.20	1.22	1.18	1.21	28300
20170623	1.18	1.25	1.18	1.25	26900
20170626	1.26	1.26	1.20	1.25	18900
20170627	1.25	1.26	1.20	1.21	30600
20170628	1.20	1.23	1.20	1.22	15200
20170629	1.22	1.24	1.22	1.23	37200
20170630	1.28	1.28	1.22	1.27	10200
20170703	1.26	1.28	1.23	1.25	10100
20170705	1.26	1.26	1.23	1.24	3700
20170706	1.24	1.26	1.24	1.24	13300
20170707	1.25	1.25	1.21	1.22	46300
20170710	1.24	1.24	1.19	1.21	16600
20170711	1.20	1.22	1.19	1.20	24700
20170712	1.20	1.27	1.20	1.23	46600
20170713	1.22	1.28	1.21	1.26	60100
20170714	1.27	1.27	1.25	1.25	9600
20170717	1.23	1.28	1.23	1.27	20100
20170718	1.29	1.30	1.27	1.29	39200
20170719	1.29	1.30	1.28	1.29	126500
20170720	1.29	1.30	1.28	1.28	13600
20170721	1.27	1.30	1.27	1.29	144300
20170724	1.28	1.30	1.28	1.28	14500
20170725	1.28	1.29	1.27	1.28	41000
20170726	1.28	1.29	1.26	1.27	63600
20170727	1.27	1.29	1.26	1.26	28400
20170728	1.29	1.32	1.29	1.30	31800
20170731	1.29	1.31	1.28	1.28	10300
20170801	1.28	1.29	1.26	1.27	6200
20170802	1.27	1.27	1.23	1.25	46300
20170803	1.23	1.23	1.21	1.22	27000
20170804	1.20	1.28	1.20	1.21	36400
20170807	1.20	1.23	1.16	1.18	14800
20170808	1.18	1.21	1.16	1.17	65800
20170809	1.18	1.19	1.17	1.18	18700
20170810	1.21	1.21	1.11	1.18	115800
20170811	1.17	1.18	1.12	1.13	100900
20170814	1.13	1.14	1.10	1.12	100500
20170815	1.13	1.15	1.12	1.12	65700
20170816	1.15	1.18	1.14	1.16	106800
20170817	1.17	1.17	1.13	1.13	67900
20170818	1.13	1.15	1.13	1.13	44200
20170821	1.13	1.15	1.12	1.13	63100
20170822	1.13	1.17	1.11	1.13	72600
20170823	1.13	1.17	1.13	1.17	40600
20170824	1.17	1.24	1.15	1.24	34800
20170825	1.23	1.23	1.14	1.19	63200
20170828	1.18	1.21	1.15	1.18	28500
20170829	1.17	1.26	1.17	1.22	23500
20170830	1.21	1.21	1.18	1.19	23600
20170831	1.19	1.28	1.16	1.27	60600
20170901	1.28	1.29	1.22	1.22	18600
20170905	1.23	1.26	1.21	1.23	34700
20170906	1.23	1.26	1.21	1.21	34700
20170907	1.22	1.27	1.21	1.22	12300
20170908	1.21	1.22	1.18	1.18	46700
20170911	1.22	1.22	1.14	1.14	178900
20170912	1.16	1.16	1.10	1.11	127800
20170913	1.10	1.18	1.06	1.14	144800
20170914	1.18	1.19	1.16	1.17	25800
20170915	1.16	1.19	1.01	1.01	438800
20170918	1.04	1.11	1.03	1.06	289100
20170919	1.07	1.11	1.06	1.09	81800
20170920	1.09	1.12	1.08	1.10	129100
20170921	1.09	1.16	1.09	1.14	169900
20170922	1.16	1.19	1.15	1.19	56600
20170925	1.19	1.23	1.18	1.22	82100
20170926	1.20	1.26	1.20	1.24	96100
20170927	1.26	1.30	1.25	1.29	99300
20170928	1.28	1.31	1.28	1.30	64200
20170929	1.30	1.36	1.30	1.36	101500
20171002	1.33	1.36	1.32	1.34	24800
20171003	1.33	1.35	1.28	1.34	59900
20171004	1.34	1.37	1.32	1.36	47700
20171005	1.36	1.42	1.35	1.40	56400
20171006	1.37	1.44	1.37	1.43	182500
20171009	1.44	1.47	1.38	1.43	58400
20171010	1.43	1.51	1.43	1.48	137200
20171011	1.48	1.55	1.46	1.55	115000
20171012	1.55	1.55	1.49	1.53	82700
20171013	1.53	1.53	1.49	1.51	49300
20171016	1.50	1.56	1.49	1.51	41200
20171017	1.49	1.54	1.45	1.49	112700
20171018	1.48	1.50	1.46	1.50	46000
20171019	1.52	1.52	1.42	1.52	35100
20171020	1.49	1.50	1.45	1.49	28900
20171023	1.51	1.51	1.45	1.48	46800
20171024	1.45	1.50	1.45	1.48	41000
20171025	1.48	1.49	1.46	1.46	19400
20171026	1.48	1.49	1.42	1.47	49900
20171027	1.48	1.51	1.46	1.51	34700
20171030	1.51	1.61	1.49	1.57	101600
20171031	1.56	1.61	1.48	1.59	45700
20171101	1.59	1.67	1.59	1.67	151400
20171102	1.66	1.75	1.65	1.69	150300
20171103	1.55	1.60	1.35	1.40	631000
20171106	1.48	1.50	1.41	1.46	128200
20171107	1.45	1.48	1.40	1.48	56400
20171108	1.48	1.48	1.43	1.44	20400
20171109	1.47	1.47	1.41	1.43	42800
20171110	1.42	1.45	1.41	1.42	54100
20171113	1.44	1.44	1.38	1.42	59200
20171114	1.41	1.42	1.39	1.40	43800
20171115	1.42	1.42	1.35	1.40	49300
20171116	1.40	1.40	1.35	1.37	50900
20171117	1.36	1.42	1.36	1.40	21400
20171120	1.40	1.41	1.37	1.41	21500
20171121	1.41	1.41	1.38	1.40	27200
20171122	1.40	1.45	1.40	1.41	116900
20171124	1.38	1.42	1.38	1.42	2700
20171127	1.43	1.45	1.38	1.39	39000
20171128	1.38	1.40	1.36	1.40	21700
20171129	1.38	1.38	1.30	1.36	107600
20171130	1.36	1.38	1.35	1.37	99100
20171201	1.38	1.42	1.37	1.37	51300
20171204	1.38	1.39	1.34	1.37	101100
20171205	1.36	1.37	1.34	1.35	13700
20171206	1.36	1.36	1.29	1.30	171100
20171207	1.30	1.30	1.27	1.29	34200
20171208	1.30	1.30	1.26	1.27	99100
20171211	1.28	1.30	1.23	1.30	49600
20171212	1.29	1.32	1.29	1.30	39700
20171213	1.30	1.30	1.24	1.26	75500
20171214	1.27	1.27	1.24	1.26	102200
20171215	1.25	1.26	1.23	1.25	44600
20171218	1.25	1.26	1.19	1.21	122200
20171219	1.20	1.21	1.19	1.19	78000
20171220	1.23	1.27	1.20	1.22	103800
20171221	1.23	1.26	1.22	1.26	132500
20171222	1.26	1.28	1.23	1.27	222000
20171226	1.27	1.30	1.26	1.27	61000
20171227	1.28	1.32	1.24	1.31	175100
20171228	1.30	1.35	1.30	1.32	119100
20171229	1.35	1.36	1.33	1.36	57600
20180102	1.39	1.40	1.36	1.38	54800
20180103	1.37	1.38	1.29	1.36	94600
20180104	1.36	1.36	1.32	1.36	77800
20180105	1.36	1.36	1.33	1.36	98900
20180108	1.36	1.36	1.34	1.36	119300
20180109	1.37	1.39	1.35	1.37	135300
20180110	1.34	1.38	1.34	1.37	94700
20180111	1.36	1.42	1.36	1.40	315000
20180112	1.41	1.41	1.37	1.39	138000
20180116	1.41	1.41	1.35	1.38	91300
20180117	1.38	1.38	1.36	1.37	28300
20180118	1.37	1.41	1.36	1.39	59200
20180119	1.39	1.41	1.37	1.40	33400
20180122	1.39	1.41	1.38	1.39	48300
20180123	1.38	1.41	1.36	1.37	49000
20180124	1.39	1.40	1.37	1.38	56500
20180125	1.38	1.42	1.38	1.40	61000
20180126	1.40	1.43	1.40	1.41	77600
20180129	1.41	1.42	1.38	1.40	59400
20180130	1.40	1.41	1.30	1.31	180500
20180131	1.32	1.40	1.30	1.39	118600
20180201	1.39	1.39	1.36	1.38	58200
20180202	1.36	1.39	1.32	1.36	65300
20180205	1.35	1.35	1.28	1.33	105800
20180206	1.32	1.32	1.29	1.32	93400
20180207	1.32	1.39	1.30	1.30	175900
20180208	1.30	1.30	1.22	1.23	124000
20180209	1.25	1.25	1.17	1.20	83100
20180212	1.20	1.26	1.20	1.26	70300
20180213	1.24	1.27	1.24	1.26	81000
20180214	1.26	1.28	1.23	1.26	39400
20180215	1.28	1.28	1.23	1.23	52800
20180216	1.23	1.28	1.23	1.25	39700
20180220	1.24	1.26	1.24	1.26	28500
20180221	1.26	1.27	1.21	1.21	69700
20180222	1.23	1.27	1.21	1.23	77300
20180223	1.22	1.25	1.21	1.25	9800
20180226	1.27	1.29	1.24	1.27	71900
20180227	1.24	1.28	1.20	1.20	92600
20180228	1.23	1.25	1.19	1.23	70400
20180301	1.27	1.27	1.21	1.22	14300
20180302	1.21	1.25	1.13	1.18	79700
20180305	1.18	1.22	1.17	1.22	49800
20180306	1.23	1.23	1.20	1.21	45100
20180307	1.23	1.25	1.20	1.21	64900
20180308	1.24	1.24	1.20	1.21	160600
20180309	1.23	1.24	1.21	1.22	69100
20180312	1.21	1.25	1.21	1.24	47400
20180313	1.21	1.27	1.21	1.27	44200
20180314	1.27	1.27	1.25	1.26	21900
20180315	1.26	1.28	1.24	1.28	19100
20180316	1.26	1.28	1.25	1.26	26400
20180319	1.25	1.28	1.25	1.27	27700
20180320	1.26	1.29	1.26	1.29	50400
20180321	1.27	1.33	1.27	1.33	41900
20180322	1.33	1.37	1.33	1.37	23900
20180323	1.38	1.38	1.34	1.37	33200
20180326	1.38	1.38	1.30	1.31	19900
20180327	1.30	1.31	1.27	1.28	49200
20180328	1.26	1.28	1.24	1.25	39400
20180329	1.26	1.28	1.24	1.27	47800
20180402	1.26	1.27	1.24	1.25	23700
20180403	1.27	1.27	1.24	1.25	17400
20180404	1.25	1.25	1.23	1.25	11000
20180405	1.24	1.26	1.18	1.19	273200
20180406	1.20	1.22	1.19	1.22	78400
20180409	1.22	1.26	1.18	1.20	134100
20180410	1.21	1.26	1.21	1.23	104300
20180411	1.22	1.27	1.22	1.25	91800
20180412	1.24	1.29	1.23	1.29	69900
20180413	1.28	1.31	1.26	1.29	72500
20180416	1.28	1.32	1.28	1.32	42200
20180417	1.31	1.34	1.30	1.32	131000
20180418	1.32	1.38	1.31	1.31	149300
20180419	1.32	1.40	1.32	1.39	54600
20180420	1.40	1.52	1.40	1.52	147800
20180423	1.51	1.51	1.45	1.48	136600
20180424	1.48	1.54	1.47	1.49	270200
20180425	1.48	1.57	1.47	1.54	88300
20180426	1.55	1.59	1.53	1.54	64400
20180427	1.65	1.65	1.54	1.56	241500
20180430	1.62	1.70	1.58	1.70	264600
20180501	1.70	1.80	1.68	1.73	180500
20180502	1.74	1.83	1.73	1.77	179300
20180503	1.77	1.83	1.75	1.83	144600
20180504	1.80	1.83	1.74	1.77	162100
20180507	1.78	1.90	1.78	1.85	243600
20180508	1.85	1.94	1.81	1.88	303100
20180509	1.91	2.02	1.91	2.00	620600
20180510	2.02	2.02	1.87	1.89	285000
20180511	1.90	1.90	1.68	1.81	377400
20180514	1.78	1.83	1.76	1.82	249200
20180515	1.83	1.91	1.80	1.84	367500
20180516	1.85	1.93	1.83	1.85	295000
20180517	1.94	1.99	1.92	1.93	664300
20180518	2.05	2.15	1.95	2.11	529700
20180521	2.25	2.69	2.22	2.50	1888900
20180522	2.55	2.60	2.07	2.12	1550600
20180523	2.09	2.35	2.08	2.31	686800
20180524	2.27	2.32	2.17	2.18	392500
20180525	2.18	2.18	2.00	2.15	518800
20180529	2.12	2.19	2.01	2.17	290200
20180530	2.16	2.35	2.14	2.35	483600
20180531	2.35	2.41	2.33	2.40	363700
20180601	2.42	2.44	2.30	2.34	415800
20180604	2.34	2.38	2.24	2.28	431700
20180605	2.26	2.29	2.12	2.23	428600
20180606	2.24	2.34	2.21	2.33	266000
20180607	2.35	2.38	2.28	2.32	279100
20180608	2.32	2.34	2.25	2.33	189400
20180611	2.26	2.29	2.18	2.24	482500
20180612	2.22	2.35	2.22	2.26	291300
20180613	2.26	2.32	2.23	2.27	401700
20180614	2.29	2.34	2.18	2.19	246600
20180615	2.18	2.18	2.12	2.12	431400
20180618	2.11	2.25	2.11	2.20	253700
20180619	2.21	2.28	2.15	2.25	239500
20180620	2.27	2.30	2.22	2.23	212300
20180621	2.23	2.23	2.16	2.18	178400
20180622	2.21	2.34	2.18	2.26	528300
20180625	2.23	2.30	2.19	2.27	165700
20180626	2.30	2.35	2.25	2.31	511500
20180627	2.31	2.53	2.31	2.49	920900
20180628	2.51	2.69	2.51	2.57	793100
20180629	2.62	2.68	2.54	2.62	641600
20180702	2.61	2.61	2.49	2.58	303400
20180703	2.61	2.87	2.61	2.71	940600
20180705	2.74	2.77	2.65	2.74	784100
20180706	2.78	2.79	2.70	2.78	503500
20180709	2.82	3.12	2.79	3.11	1352500
20180710	3.15	3.29	3.14	3.22	1388600
20180711	3.22	3.71	3.15	3.56	2036600
20180712	3.68	3.68	3.46	3.56	1408600
20180713	3.57	3.91	3.56	3.83	1783500
20180716	3.78	3.78	3.47	3.57	1696900
20180717	3.54	3.54	3.33	3.34	1012100
20180718	3.33	3.45	3.19	3.40	999100
20180719	3.38	3.50	3.37	3.40	753100
20180720	3.40	3.41	3.21	3.24	600000
20180723	3.26	3.31	3.18	3.23	384500
20180724	3.19	3.34	3.19	3.19	685000
20180725	3.19	3.27	3.13	3.19	361400
20180726	3.15	3.22	3.10	3.17	318300
20180727	3.18	3.18	2.97	3.01	540200
20180730	3.01	3.05	2.94	2.96	359500
20180731	2.97	3.12	2.91	3.06	421700
20180801	3.06	3.12	2.96	3.06	330400
20180802	3.05	3.09	2.95	2.99	247800
20180803	3.00	3.09	2.99	3.05	581300
20180806	3.03	3.12	2.90	2.92	430400
20180807	2.93	3.10	2.93	3.02	304700
20180808	3.00	3.06	2.99	3.04	418900
20180809	3.04	3.06	2.96	3.04	209200
20180810	3.03	3.05	2.97	3.02	363500
20180813	3.05	3.05	2.86	2.89	533600
20180814	3.02	3.31	2.79	2.97	2481700
20180815	2.94	2.95	2.68	2.77	731000
20180816	2.76	2.94	2.72	2.90	606000
20180817	2.92	3.05	2.90	2.95	647200
20180820	2.93	3.20	2.93	3.15	444800
20180821	3.20	3.39	3.13	3.28	575500
20180822	3.31	3.39	3.24	3.28	473800
20180823	3.31	3.31	3.07	3.23	553800
20180824	3.24	3.40	3.24	3.30	290700
20180827	3.30	3.34	3.23	3.28	231800
20180828	3.24	3.34	3.23	3.24	285900
20180829	3.25	3.31	3.23	3.27	149800
20180830	3.30	3.45	3.20	3.24	311100
20180831	3.21	3.24	3.16	3.21	143000
20180904	3.23	3.23	3.11	3.17	220900
20180905	3.15	3.22	3.05	3.15	448500
20180906	3.13	3.20	3.04	3.10	251700
20180907	3.05	3.10	3.02	3.07	119200
20180910	3.11	3.35	3.10	3.35	942600
20180911	3.44	3.64	3.36	3.57	805200
20180912	3.63	3.68	3.34	3.47	377300
20180913	3.40	3.54	3.38	3.41	237800
20180914	3.35	3.52	3.35	3.47	214700
20180917	3.45	3.49	3.37	3.39	185700
20180918	3.40	3.43	3.22	3.24	365300
20180919	3.25	3.26	3.20	3.24	184100
20180920	3.23	3.25	3.11	3.16	356300
20180921	3.16	3.21	3.09	3.17	286300
20180924	3.16	3.32	3.16	3.29	460400
20180925	3.35	3.54	3.26	3.29	703300
20180926	3.28	3.29	3.18	3.19	448800
20180927	3.20	3.20	3.13	3.15	413900
20180928	3.14	3.29	3.12	3.19	765400
20181001	3.20	3.41	3.20	3.36	466200
20181002	3.34	3.40	3.30	3.32	452700
20181003	3.32	3.35	3.21	3.30	776300
20181004	3.30	3.32	3.13	3.17	681800
20181005	3.16	3.21	2.97	3.17	1167900
20181008	3.15	3.15	3.02	3.13	303600
20181009	3.07	3.26	3.00	3.20	157100
20181010	3.21	3.22	3.02	3.04	345000
20181011	3.00	3.07	2.86	2.87	497800
20181012	2.91	3.03	2.91	2.96	400000
20181015	2.96	3.01	2.87	2.89	372100
20181016	2.88	3.00	2.87	2.97	318600
20181017	2.97	2.99	2.88	2.95	230100
20181018	2.91	2.94	2.82	2.89	676200
20181019	2.90	2.96	2.84	2.86	229600
20181022	2.84	2.87	2.44	2.47	1288400
20181023	2.41	2.48	1.93	1.94	2656500
20181024	1.97	2.33	1.97	2.24	1109300
20181025	2.27	2.39	2.17	2.34	526100
20181026	2.29	2.40	2.27	2.34	370400
20181029	2.35	2.38	2.17	2.21	321100
20181030	2.18	2.25	2.08	2.21	537200
20181031	2.23	2.31	2.20	2.21	209200
20181101	2.23	2.36	2.18	2.36	244200
20181102	2.35	2.37	2.21	2.25	218000
20181105	2.25	2.31	2.20	2.26	210500
20181106	2.27	2.31	2.22	2.28	181300
20181107	2.29	2.40	2.26	2.30	118400
20181108	2.20	2.26	2.04	2.12	358600
20181109	2.11	2.11	2.00	2.07	167900
20181112	2.06	2.10	1.96	2.02	279500
20181113	2.01	2.36	1.98	2.27	508300
20181114	2.30	2.31	2.03	2.05	243400
20181115	1.96	2.16	1.96	2.09	88100
20181116	2.12	2.16	2.03	2.15	139400
20181119	2.22	2.33	2.13	2.22	357900
20181120	2.16	2.20	1.99	2.04	271700
20181121	2.06	2.13	2.05	2.12	123900
20181123	2.06	2.07	2.01	2.03	43000
20181126	2.04	2.11	2.04	2.07	263700
20181127	2.04	2.07	1.88	1.92	248100
20181128	1.94	1.98	1.87	1.96	185400
20181129	1.99	2.09	1.91	2.07	175700
20181130	2.03	2.07	2.01	2.06	138600
20181203	2.07	2.13	2.05	2.08	139500
20181204	2.08	2.08	2.02	2.03	138100
20181206	2.02	2.05	1.83	1.87	267500
20181207	1.94	1.98	1.88	1.91	161900
20181210	1.89	1.89	1.72	1.73	350900
20181211	1.77	1.82	1.74	1.82	114300
20181212	1.83	1.86	1.79	1.80	219900
20181213	1.81	1.83	1.75	1.78	146800
20181214	1.77	1.80	1.69	1.70	77100
20181217	1.71	1.76	1.67	1.69	336800
20181218	1.70	1.70	1.62	1.63	187600
20181219	1.63	1.67	1.57	1.59	182000
20181220	1.59	1.59	1.48	1.55	302600
20181221	1.54	1.57	1.48	1.51	257200
20181224	1.48	1.50	1.43	1.45	131900
20181226	1.45	1.60	1.41	1.59	144900
20181227	1.55	1.60	1.51	1.60	116300
20181228	1.60	1.65	1.56	1.61	117000
20181231	1.62	1.80	1.61	1.79	240200
20190102	1.78	1.85	1.69	1.72	271300
20190103	1.77	1.81	1.68	1.81	73200
20190104	1.83	1.88	1.79	1.85	171100
20190107	1.84	2.03	1.84	1.98	182600
20190108	2.00	2.00	1.89	1.95	74400
20190109	1.97	2.02	1.94	2.00	135900
20190110	1.97	1.97	1.91	1.94	45600
20190111	1.94	1.94	1.88	1.89	36200
20190114	1.87	1.90	1.82	1.85	60700
20190115	1.87	1.92	1.85	1.87	55200
20190116	1.87	1.91	1.84	1.85	82000
20190117	1.83	1.87	1.82	1.85	40400
20190118	1.85	1.85	1.76	1.81	166500
20190122	1.72	1.81	1.67	1.68	97100
20190123	1.68	1.76	1.67	1.67	95100
20190124	1.68	1.78	1.68	1.71	96800
20190125	1.74	1.80	1.69	1.78	42600
20190128	1.76	1.77	1.69	1.71	16800
20190129	1.72	1.74	1.60	1.65	257800
20190130	1.64	1.77	1.64	1.75	167500
20190131	1.77	1.82	1.70	1.73	88300
20190201	1.74	1.90	1.74	1.84	101700
20190204	1.84	1.86	1.78	1.84	29100
20190205	1.84	1.85	1.80	1.83	42500
20190206	1.82	1.87	1.80	1.84	42400
20190207	1.84	1.85	1.75	1.79	23400
20190208	1.78	1.82	1.72	1.76	63300
20190211	1.75	1.78	1.72	1.77	50600
20190212	1.80	1.83	1.77	1.82	40900
20190213	1.84	1.91	1.84	1.89	90000
20190214	1.87	1.96	1.87	1.92	94400
20190215	1.94	2.03	1.94	2.00	135300
20190219	2.00	2.08	1.97	2.03	204800
20190220	2.04	2.09	1.88	1.92	96700
20190221	1.91	1.99	1.91	1.93	95500
20190222	1.94	2.01	1.93	1.98	78900
20190225	1.98	2.00	1.93	1.95	52100
20190226	1.94	1.97	1.87	1.89	70000
20190227	1.91	1.95	1.91	1.93	26100
20190228	1.94	1.96	1.89	1.89	72500
20190301	1.91	1.96	1.87	1.89	102700
20190304	1.91	1.95	1.89	1.89	74400
20190305	1.91	2.04	1.91	1.97	63600
20190306	1.95	2.10	1.93	1.95	130700
20190307	1.92	1.98	1.90	1.95	44900
20190308	1.93	1.97	1.89	1.93	59000
20190311	1.94	2.03	1.94	1.98	59500
20190312	1.98	2.06	1.97	2.02	143000
20190313	2.02	2.06	1.97	1.99	93900
20190314	2.01	2.09	1.94	1.99	106100
20190315	1.99	2.02	1.92	1.94	202000
20190318	1.98	2.09	1.98	2.07	131100
20190319	2.07	2.09	2.03	2.04	71000
20190320	2.08	2.08	2.03	2.04	155900
20190321	2.03	2.06	2.00	2.00	124400
20190322	2.00	2.00	1.88	1.89	270000
20190325	1.89	1.89	1.74	1.78	337700
20190326	1.79	1.82	1.64	1.67	448300
20190327	1.68	1.78	1.67	1.76	85600
20190328	1.76	1.82	1.76	1.80	138200
20190329	1.82	1.90	1.81	1.84	83000
20190401	1.88	1.89	1.77	1.81	216800
20190402	1.80	1.85	1.80	1.81	108300
20190403	1.82	1.82	1.74	1.75	76700
20190404	1.76	1.78	1.72	1.74	53700
20190405	1.74	1.81	1.72	1.79	88400
20190408	1.80	1.86	1.80	1.83	98800
20190409	1.81	1.84	1.80	1.81	56600
20190410	1.81	1.90	1.81	1.84	112900
20190411	1.83	1.92	1.81	1.83	88100
20190412	1.88	1.90	1.82	1.83	149700
20190415	1.83	1.83	1.78	1.81	132000
20190416	1.81	1.84	1.79	1.81	68000
20190417	1.78	1.82	1.78	1.81	58400
20190418	1.80	1.83	1.80	1.83	76700
20190422	1.85	1.96	1.85	1.90	134900
20190423	1.91	1.96	1.84	1.84	328000
20190424	1.90	1.92	1.84	1.87	158900
20190425	1.87	1.90	1.85	1.88	68200
20190426	1.87	1.87	1.80	1.85	97100
20190429	1.85	1.90	1.82	1.90	51500
20190430	1.90	1.92	1.87	1.90	58200
20190501	1.91	1.91	1.86	1.87	42400
20190502	1.86	1.86	1.82	1.84	34600
20190503	1.85	1.85	1.79	1.83	164500
20190506	1.83	1.83	1.80	1.82	148500
20190507	1.78	1.81	1.74	1.79	97000
20190508	1.77	1.81	1.77	1.77	60700
20190509	1.78	1.78	1.74	1.76	34000
20190510	1.75	1.78	1.73	1.73	103500
20190513	1.74	1.75	1.70	1.72	79300
20190514	1.73	1.76	1.71	1.71	155500
20190515	1.70	1.73	1.69	1.70	205600
20190516	1.71	1.74	1.70	1.71	70200
20190517	1.69	1.71	1.68	1.68	40100
20190520	1.67	1.68	1.64	1.66	189300
20190521	1.64	1.67	1.62	1.63	117400
20190522	1.62	1.65	1.56	1.56	102400
20190523	1.56	1.56	1.46	1.48	143700
20190524	1.48	1.55	1.45	1.47	135500
20190528	1.47	1.52	1.46	1.47	123000
20190529	1.48	1.52	1.46	1.47	98100
20190530	1.49	1.51	1.46	1.46	94500
20190531	1.45	1.48	1.40	1.46	105100
20190603	1.46	1.53	1.46	1.49	106200
20190604	1.49	1.51	1.45	1.50	64800
20190605	1.50	1.50	1.46	1.49	103800
20190606	1.49	1.50	1.47	1.47	68000
20190607	1.47	1.51	1.47	1.51	81600
20190610	1.50	1.52	1.43	1.45	195500
20190611	1.45	1.46	1.41	1.43	138200
20190612	1.43	1.46	1.36	1.38	141900
20190613	1.40	1.44	1.40	1.42	39900
20190614	1.43	1.43	1.34	1.36	122100
20190617	1.37	1.39	1.34	1.37	57100
20190618	1.39	1.42	1.37	1.41	59300
20190619	1.44	1.44	1.35	1.36	164500
20190620	1.38	1.43	1.37	1.41	250900
20190621	1.37	1.40	1.37	1.37	340600
20190624	1.39	1.39	1.34	1.35	102000
20190625	1.35	1.38	1.34	1.36	213000
20190626	1.37	1.41	1.33	1.38	220000
20190627	1.35	1.38	1.35	1.38	54300
20190628	1.38	1.38	1.35	1.35	56200
20190701	1.35	1.40	1.35	1.36	49200
20190702	1.40	1.40	1.31	1.32	85300
20190703	1.33	1.33	1.32	1.32	33300
20190705	1.33	1.33	1.30	1.31	61800
20190708	1.31	1.36	1.30	1.31	268800
20190709	1.31	1.34	1.30	1.33	101700
20190710	1.34	1.42	1.34	1.41	426000
20190711	1.46	1.46	1.41	1.43	167500
20190712	1.43	1.44	1.41	1.43	100800
20190715	1.43	1.46	1.42	1.44	75300
20190716	1.44	1.45	1.42	1.42	62800
20190717	1.43	1.43	1.39	1.39	175400
20190718	1.40	1.41	1.39	1.39	100100
20190719	1.39	1.42	1.38	1.41	102600
20190722	1.42	1.43	1.37	1.39	132800
20190723	1.41	1.42	1.39	1.41	20800
20190724	1.41	1.44	1.41	1.41	43500
20190725	1.43	1.43	1.37	1.37	44800
20190726	1.37	1.37	1.32	1.34	89300
20190729	1.34	1.39	1.34	1.36	121600
20190730	1.35	1.45	1.32	1.44	180000
20190731	1.45	1.51	1.43	1.51	195400
20190801	1.51	1.55	1.46	1.49	174100
20190802	1.48	1.51	1.41	1.42	98200
20190805	1.40	1.44	1.36	1.42	111000
20190806	1.41	1.42	1.38	1.39	201500
20190807	1.38	1.42	1.34	1.40	104800
20190808	1.39	1.42	1.37	1.40	134600
20190809	1.41	1.44	1.38	1.39	40800
20190812	1.38	1.44	1.36	1.44	124200
20190813	1.43	1.51	1.42	1.48	216100
20190814	1.48	1.48	1.38	1.39	146100
20190815	1.41	1.41	1.36	1.40	149100
20190816	1.41	1.45	1.36	1.43	107700
20190819	1.43	1.45	1.38	1.41	143000
20190820	1.41	1.42	1.36	1.38	52300
20190821	1.38	1.43	1.38	1.40	28400
20190822	1.41	1.41	1.38	1.39	38000
20190823	1.39	1.39	1.30	1.31	177600
20190826	1.33	1.34	1.29	1.30	114800
20190827	1.30	1.32	1.27	1.30	94900
20190828	1.30	1.32	1.30	1.31	99900
20190829	1.33	1.36	1.31	1.35	139200
20190830	1.35	1.37	1.31	1.33	107800
20190903	1.33	1.33	1.29	1.33	85900
20190904	1.35	1.37	1.33	1.35	261900
20190905	1.36	1.37	1.32	1.37	68900
20190906	1.37	1.43	1.35	1.40	68300
20190909	1.41	1.46	1.41	1.45	130400
20190910	1.46	1.50	1.44	1.49	260700
20190911	1.50	1.53	1.46	1.48	152800
20190912	1.49	1.49	1.41	1.43	225100
20190913	1.44	1.46	1.38	1.41	191600
20190916	1.50	1.60	1.49	1.52	382500
20190917	1.51	1.52	1.43	1.46	138700
20190918	1.46	1.50	1.43	1.44	274600
20190919	1.44	1.49	1.44	1.47	76600
20190920	1.48	1.48	1.40	1.43	216400
20190923	1.38	1.48	1.38	1.41	212300
20190924	1.41	1.43	1.38	1.39	107400
20190925	1.38	1.40	1.36	1.37	92500
20190926	1.37	1.37	1.34	1.36	169800
20190927	1.35	1.36	1.32	1.33	168800
20190930	1.33	1.35	1.31	1.33	110100
20191001	1.32	1.35	1.30	1.32	213100
20191002	1.31	1.32	1.26	1.28	233300
20191003	1.28	1.28	1.26	1.28	131100
20191004	1.28	1.31	1.28	1.31	28900
20191007	1.31	1.33	1.31	1.32	33300
20191008	1.35	1.35	1.29	1.31	91700
20191009	1.31	1.34	1.28	1.30	99800
20191010	1.31	1.31	1.25	1.27	240400
20191011	1.28	1.33	1.26	1.29	287800
20191014	1.29	1.30	1.28	1.30	35700
20191015	1.29	1.33	1.28	1.29	74000
20191016	1.29	1.32	1.26	1.26	62500
20191017	1.27	1.27	1.25	1.27	112500
20191018	1.27	1.29	1.24	1.25	110800
20191021	1.25	1.27	1.24	1.25	48300
20191022	1.25	1.27	1.23	1.24	137000
20191023	1.24	1.27	1.22	1.23	134100
20191024	1.24	1.27	1.22	1.23	123700
20191025	1.22	1.26	1.20	1.21	169900
20191028	1.20	1.22	1.19	1.20	139000
20191029	1.19	1.21	1.17	1.19	226400
20191030	1.18	1.19	1.16	1.17	80600
20191031	1.17	1.17	1.15	1.16	81300
20191101	1.16	1.22	1.15	1.17	158300
20191104	1.19	1.24	1.18	1.24	285600
20191105	1.24	1.28	1.23	1.26	110900
20191106	1.27	1.27	1.21	1.23	56700
20191107	1.23	1.25	1.23	1.24	73200
20191108	1.23	1.24	1.20	1.23	72400
20191111	1.22	1.23	1.20	1.22	76700
20191112	1.22	1.22	1.18	1.18	150100
20191113	1.18	1.18	1.16	1.17	52400
20191114	1.17	1.21	1.16	1.17	41000
20191115	1.17	1.19	1.17	1.18	123400
20191118	1.19	1.19	1.12	1.13	303300
20191119	1.11	1.15	1.11	1.12	259800
20191120	1.11	1.16	1.09	1.14	238200
20191121	1.15	1.17	1.14	1.14	103500
20191122	1.15	1.17	1.13	1.14	103600
20191125	1.15	1.16	1.11	1.14	199300
20191126	1.15	1.17	1.13	1.16	118700
20191127	1.16	1.17	1.14	1.14	77100
20191129	1.14	1.15	1.12	1.13	278100
20191202	1.11	1.17	1.07	1.12	163700
20191203	1.13	1.13	1.12	1.13	27800
20191204	1.13	1.15	1.11	1.14	220900
20191205	1.15	1.17	1.13	1.14	171700
20191206	1.16	1.20	1.15	1.19	155700
20191209	1.20	1.21	1.18	1.18	245400
20191210	1.19	1.20	1.16	1.19	99400
20191211	1.18	1.19	1.17	1.19	72200
20191212	1.19	1.23	1.17	1.23	179300
20191213	1.23	1.30	1.23	1.27	183100
20191216	1.27	1.32	1.26	1.28	179400
20191217	1.28	1.31	1.24	1.25	239400
20191218	1.28	1.32	1.24	1.30	115400
20191219	1.35	1.39	1.32	1.39	338000
20191220	1.36	1.46	1.36	1.45	409800
20191223	1.47	1.53	1.47	1.48	245300
20191224	1.49	1.49	1.45	1.45	55100
20191226	1.45	1.48	1.40	1.44	108800
20191227	1.43	1.47	1.43	1.43	134400
20191230	1.44	1.49	1.43	1.48	183700
20191231	1.48	1.57	1.36	1.38	723900
20200102	1.40	1.48	1.37	1.46	125700
20200103	1.49	1.50	1.42	1.45	257400
20200106	1.46	1.46	1.40	1.42	212800
20200107	1.40	1.42	1.39	1.40	105000
20200108	1.40	1.43	1.33	1.34	203800
20200109	1.33	1.40	1.26	1.39	299500
20200110	1.40	1.42	1.35	1.41	101700
20200113	1.42	1.44	1.32	1.43	151600
20200114	1.42	1.44	1.38	1.38	106100
20200115	1.40	1.40	1.34	1.36	78500
20200116	1.34	1.39	1.34	1.38	72800
20200117	1.39	1.41	1.34	1.39	166600
20200121	1.41	1.41	1.32	1.34	116700
20200122	1.36	1.37	1.33	1.36	83400
20200123	1.36	1.36	1.29	1.31	174300
20200124	1.29	1.36	1.26	1.27	123900
20200127	1.26	1.26	1.20	1.22	188400
20200128	1.23	1.28	1.22	1.26	79200
20200129	1.27	1.27	1.23	1.24	36800
20200130	1.20	1.32	1.20	1.30	164600
20200131	1.29	1.29	1.21	1.28	115300
20200203	1.28	1.28	1.22	1.25	79300
20200204	1.26	1.30	1.26	1.29	36400
20200205	1.30	1.33	1.27	1.28	159100
20200206	1.28	1.31	1.24	1.30	38500
20200207	1.30	1.30	1.24	1.28	78300
20200210	1.30	1.30	1.23	1.25	56800
20200211	1.26	1.26	1.23	1.23	64500
20200212	1.24	1.30	1.21	1.24	151100
20200213	1.27	1.27	1.21	1.23	41300
20200214	1.26	1.26	1.19	1.20	370100
20200218	1.20	1.25	1.19	1.20	105200
20200219	1.24	1.24	1.19	1.22	144900
20200220	1.22	1.24	1.20	1.22	88600
20200221	1.20	1.24	1.20	1.22	38900
20200224	1.18	1.23	1.17	1.21	87700
20200225	1.21	1.23	1.16	1.18	165500
20200226	1.17	1.21	1.05	1.14	173100
20200227	1.13	1.14	1.02	1.08	409700
20200228	1.01	1.09	1.01	1.09	307200
20200302	1.09	1.12	1.07	1.10	69200
20200303	1.11	1.15	1.07	1.11	64500
20200304	1.11	1.12	1.08	1.09	47100
20200305	1.07	1.10	1.06	1.08	81800
20200306	1.06	1.07	0.95	0.97	379800
20200309	0.80	0.80	0.64	0.69	884200
20200310	0.75	0.83	0.68	0.79	188500
20200311	0.79	0.79	0.61	0.64	203900
20200312	0.50	0.60	0.49	0.56	446400
20200313	0.58	0.58	0.46	0.48	443700
20200316	0.36	0.52	0.36	0.51	190200
20200317	0.51	0.51	0.41	0.46	52300
20200318	0.42	0.43	0.34	0.39	290400
20200319	0.45	0.45	0.32	0.38	206300
20200320	0.40	0.40	0.34	0.38	329400
20200323	0.39	0.40	0.35	0.39	111700
20200324	0.40	0.45	0.38	0.42	160900
20200325	0.43	0.53	0.40	0.47	590200
20200326	0.50	0.53	0.40	0.40	332000
20200327	0.40	0.42	0.37	0.39	112500
20200330	0.41	0.41	0.35	0.36	196800
20200331	0.36	0.40	0.35	0.36	236500
20200401	0.40	0.41	0.30	0.34	361000
20200402	0.35	0.41	0.34	0.39	566700
20200403	0.39	0.48	0.36	0.40	380600
20200406	0.40	0.43	0.38	0.41	126400
20200407	0.41	0.44	0.39	0.40	130300
20200408	0.40	0.45	0.39	0.45	74400
20200409	0.46	0.51	0.45	0.48	214800
20200413	0.49	0.50	0.42	0.43	199900
20200414	0.43	0.47	0.42	0.44	125000
20200415	0.41	0.46	0.40	0.43	92500
20200416	0.43	0.47	0.38	0.41	84700
20200417	0.42	0.44	0.38	0.44	93100
20200420	0.44	0.46	0.40	0.43	96300
20200421	0.43	0.43	0.38	0.42	73700
20200422	0.44	0.45	0.40	0.43	80300
20200423	0.43	0.47	0.40	0.45	115300
20200424	0.46	0.51	0.45	0.45	128600
20200427	0.50	0.50	0.43	0.47	85000
20200428	0.45	0.47	0.43	0.47	81500
20200429	0.48	0.58	0.47	0.56	347600
20200430	0.60	0.67	0.58	0.62	321600
20200501	0.64	0.67	0.51	0.57	235500
20200504	0.57	0.65	0.53	0.55	134100
20200505	0.57	0.63	0.56	0.56	265000
20200506	0.59	0.60	0.51	0.53	74000
20200507	0.55	0.59	0.54	0.55	70500
20200508	0.54	0.55	0.51	0.55	114800
20200511	0.56	0.56	0.50	0.52	87200
20200512	0.50	0.52	0.47	0.49	164900
20200513	0.48	0.50	0.46	0.49	62200
20200514	0.47	0.48	0.45	0.47	61000
20200515	0.47	0.50	0.45	0.50	91000
20200518	0.52	0.53	0.51	0.52	121100
20200519	0.48	0.53	0.48	0.52	198500
20200520	0.53	0.54	0.50	0.54	177200
20200521	0.54	0.57	0.51	0.57	88300
20200522	0.54	0.57	0.53	0.54	69000
20200526	0.52	0.57	0.51	0.56	183000
20200527	0.56	0.57	0.52	0.54	88800
20200528	0.56	0.56	0.51	0.54	149800
20200529	0.52	0.53	0.50	0.53	142600
20200601	0.51	0.56	0.51	0.52	117900
20200602	0.50	0.54	0.49	0.52	306700
20200603	0.52	0.56	0.50	0.54	166400
20200604	0.55	0.61	0.52	0.59	279900
20200605	0.64	0.67	0.61	0.63	422100
20200608	0.70	0.75	0.66	0.71	521100
20200609	0.73	0.73	0.64	0.69	268500
20200610	0.69	0.69	0.59	0.63	271600
20200611	0.56	0.60	0.54	0.57	164300
20200612	0.61	0.62	0.58	0.60	153700
20200615	0.57	0.60	0.55	0.59	103800
20200616	0.57	0.65	0.55	0.58	132400
20200617	0.58	0.60	0.55	0.58	110300
20200618	0.57	0.59	0.55	0.57	62300
20200619	0.56	0.59	0.55	0.55	196300
20200622	0.55	0.59	0.53	0.58	154800
20200623	0.57	0.60	0.56	0.58	180500
20200624	0.54	0.61	0.54	0.58	87100
20200625	0.56	0.59	0.54	0.56	70600
20200626	0.55	0.58	0.54	0.56	84700
20200629	0.57	0.59	0.53	0.56	142600
20200630	0.54	0.61	0.53	0.57	160500
20200701	0.57	0.64	0.55	0.59	105800
20200702	0.59	0.62	0.58	0.60	114900
20200706	0.63	0.73	0.60	0.62	558700
20200707	0.66	0.66	0.58	0.60	173700
20200708	0.64	0.64	0.60	0.63	140600
20200709	0.60	0.65	0.58	0.60	123100
20200710	0.56	0.63	0.56	0.60	77900
20200713	0.59	0.61	0.59	0.60	92400
20200714	0.59	0.60	0.58	0.59	102500
20200715	0.61	0.61	0.58	0.59	67200
20200716	0.60	0.61	0.59	0.60	46100
20200717	0.60	0.60	0.56	0.58	111200
20200720	0.61	0.61	0.56	0.58	77800
20200721	0.60	0.60	0.56	0.57	204200
20200722	0.63	0.66	0.60	0.61	599100
20200723	0.62	0.64	0.58	0.60	172300
20200724	0.60	0.60	0.57	0.59	114600
20200727	0.60	0.60	0.57	0.58	186100
20200728	0.57	0.60	0.57	0.59	123700
20200729	0.59	0.60	0.58	0.59	113800
20200730	0.59	0.59	0.56	0.57	120800
20200731	0.57	0.60	0.57	0.58	91000
20200803	0.57	0.58	0.56	0.57	96000
20200804	0.58	0.62	0.56	0.60	330400
20200805	0.59	0.62	0.59	0.60	190700
20200806	0.61	0.61	0.60	0.61	116400
20200807	0.59	0.60	0.57	0.60	79800
20200810	0.60	0.64	0.57	0.62	122400
20200811	0.62	0.63	0.58	0.61	108600
20200812	0.61	0.61	0.58	0.60	259700
20200813	0.60	0.60	0.58	0.60	82200
20200814	0.60	0.60	0.58	0.59	82300
20200817	0.59	0.61	0.59	0.60	188900
20200818	0.60	0.61	0.59	0.60	41500
20200819	0.60	0.60	0.56	0.60	277100
20200820	0.59	0.59	0.54	0.57	134600
20200821	0.56	0.57	0.53	0.57	314100
20200824	0.56	0.57	0.52	0.52	140500
20200825	0.52	0.57	0.52	0.55	89700
20200826	0.58	0.58	0.53	0.55	241200
20200827	0.58	0.58	0.53	0.55	249300
20200828	0.54	0.56	0.53	0.55	72800
20200831	0.55	0.56	0.53	0.55	52900
20200901	0.55	0.55	0.53	0.54	117600
20200902	0.53	0.55	0.53	0.53	145000
20200903	0.53	0.54	0.51	0.51	129400
20200904	0.52	0.54	0.49	0.50	191800
20200908	0.50	0.50	0.45	0.48	252900
20200909	0.49	0.49	0.45	0.47	95800
20200910	0.46	0.47	0.45	0.45	159400
20200911	0.45	0.47	0.43	0.45	117800
20200914	0.45	0.47	0.44	0.46	96700
20200915	0.46	0.50	0.46	0.46	122500
20200916	0.46	0.50	0.44	0.45	110200
20200917	0.45	0.48	0.43	0.44	344100
20200918	0.45	0.45	0.40	0.42	385600
20200921	0.39	0.42	0.39	0.41	127300
20200922	0.42	0.42	0.39	0.40	162600
20200923	0.41	0.42	0.38	0.41	633600
20200924	0.41	0.41	0.39	0.40	98700
20200925	0.40	0.41	0.39	0.40	200200
20200928	0.40	0.41	0.38	0.38	120600
20200929	0.38	0.42	0.38	0.41	305500
20200930	0.38	0.42	0.38	0.41	187300
20201001	0.41	0.41	0.38	0.40	124600
20201002	0.38	0.40	0.38	0.40	158900
20201005	0.40	0.41	0.39	0.40	131400
20201006	0.40	0.42	0.39	0.40	248000
20201007	0.40	0.41	0.39	0.41	129000
20201008	0.42	0.58	0.40	0.52	1294100
20201009	0.52	0.52	0.44	0.48	438100
20201012	0.48	0.48	0.43	0.45	159800
20201013	0.43	0.46	0.41	0.44	247600
20201014	0.43	0.45	0.41	0.44	173700
20201015	0.42	0.48	0.42	0.46	210700
20201016	0.45	0.46	0.44	0.45	151800
20201019	0.46	0.48	0.44	0.44	93900
20201020	0.47	0.47	0.44	0.44	67200
20201021	0.45	0.45	0.44	0.44	74700
20201022	0.45	0.53	0.41	0.45	3116300
20201023	0.48	0.50	0.41	0.42	1523200
20201026	0.42	0.42	0.39	0.40	320500
20201027	0.41	0.42	0.40	0.40	122300
20201028	0.39	0.40	0.38	0.39	128100
20201029	0.39	0.41	0.38	0.38	157500
20201030	0.39	0.40	0.37	0.39	161800
20201102	0.37	0.40	0.37	0.39	152600
20201103	0.39	0.43	0.39	0.42	83200
20201104	0.43	0.43	0.40	0.41	41900
20201105	0.41	0.43	0.39	0.42	149500
20201106	0.42	0.43	0.40	0.43	92100
20201109	0.43	0.46	0.39	0.42	1091500
20201110	0.42	0.43	0.41	0.43	270500
20201111	0.44	0.44	0.42	0.44	445300
20201112	0.44	0.44	0.42	0.43	65000
20201113	0.43	0.44	0.41	0.43	154200
20201116	0.43	0.46	0.42	0.44	386100
20201117	0.43	0.44	0.41	0.42	304700
20201118	0.42	0.46	0.42	0.45	347300
20201119	0.45	0.46	0.45	0.46	268400
20201120	0.47	0.48	0.46	0.47	145800
20201123	0.47	0.48	0.45	0.48	206800
20201124	0.50	0.53	0.48	0.49	806500
20201125	0.50	0.53	0.50	0.53	737000
20201127	0.54	0.54	0.51	0.53	321300
20201130	0.51	0.53	0.50	0.51	175800
20201201	0.53	0.53	0.49	0.50	167200
20201202	0.50	0.55	0.49	0.51	371700
20201203	0.51	1.02	0.50	0.64	21854500
20201204	0.64	0.75	0.64	0.73	2558500
20201207	0.79	0.85	0.70	0.83	2286000
20201208	0.84	0.93	0.83	0.88	1018200
20201209	0.95	0.95	0.88	0.94	797100
20201210	0.94	1.02	0.94	1.02	817900
20201211	1.04	1.05	0.92	0.93	839000
20201214	0.99	1.05	0.91	0.93	721100
20201215	1.00	1.03	0.93	0.95	284000
20201216	0.94	0.98	0.92	0.92	184900
20201217	0.95	0.98	0.92	0.95	264000
20201218	0.97	0.97	0.90	0.90	511000
20201221	0.89	0.90	0.81	0.83	634000
20201222	0.83	0.90	0.83	0.88	264200
20201223	0.88	0.96	0.87	0.95	201100
20201224	0.95	1.02	0.94	1.01	150000
20201228	1.01	1.01	0.92	0.95	241200
20201229	0.98	0.98	0.89	0.90	181600
20201230	0.85	0.95	0.85	0.87	544600
20201231	0.96	0.98	0.92	0.96	402400
20210104	0.95	0.96	0.88	0.91	306600
20210105	0.88	0.97	0.88	0.95	393700
20210106	0.96	1.05	0.94	0.99	507000
20210107	0.99	1.04	0.94	1.00	314000
20210108	1.01	1.15	0.99	1.14	1004400
20210111	1.11	1.21	1.09	1.11	396800
20210112	1.13	1.21	1.12	1.16	407500
20210113	1.16	1.18	1.09	1.12	388100
20210114	1.16	1.19	1.12	1.18	639600
20210115	1.20	1.20	1.11	1.17	449000
20210119	1.16	1.21	1.14	1.15	385000
20210120	1.16	1.18	1.08	1.13	893900
20210121	1.13	1.17	1.06	1.15	890900
20210122	1.14	1.14	1.09	1.11	333600
20210125	1.12	1.12	1.04	1.08	298200
20210126	1.06	1.09	0.93	1.05	305400
20210127	1.02	1.14	1.00	1.03	438500
20210128	1.04	1.26	1.04	1.07	1005000
20210129	1.07	1.11	1.02	1.04	702400
20210201	1.05	1.11	1.05	1.10	236400
20210202	1.07	1.16	1.07	1.13	468600
20210203	1.16	1.25	1.11	1.22	1161100
20210204	1.22	1.30	1.18	1.23	860500
20210205	1.27	1.29	1.22	1.27	324100
20210208	1.27	1.32	1.23	1.32	907700
20210209	1.34	1.38	1.30	1.36	830800
20210210	1.35	1.45	1.26	1.39	976500
20210211	1.39	1.44	1.32	1.39	514200
20210212	1.41	1.43	1.34	1.40	487600
20210216	1.42	1.43	1.33	1.43	686900
20210217	1.38	1.42	1.31	1.39	623600
20210218	1.39	1.40	1.35	1.38	296100
20210219	1.38	1.39	1.30	1.38	252300
20210222	1.40	1.48	1.35	1.47	439300
20210223	1.45	1.49	1.32	1.48	464300
20210224	1.49	1.63	1.47	1.58	780700
20210225	1.58	1.62	1.41	1.45	539200
20210226	1.44	1.53	1.36	1.45	371600
20210301	1.51	1.58	1.46	1.50	506400
20210302	1.54	1.54	1.40	1.47	381600
20210303	1.46	1.52	1.44	1.47	338900
20210304	1.45	1.52	1.38	1.46	763400
20210305	1.49	1.56	1.42	1.52	614300
20210308	1.57	1.57	1.50	1.52	226600
20210309	1.56	1.57	1.50	1.55	257200
20210310	1.57	1.60	1.47	1.59	510800
20210311	1.60	1.79	1.54	1.72	759200
20210312	1.81	1.81	1.65	1.67	257300
20210315	1.73	1.94	1.68	1.81	923800
20210316	1.81	1.84	1.70	1.77	469600
20210317	1.80	1.80	1.69	1.70	377200
20210318	1.73	1.74	1.62	1.62	474400
20210319	1.62	1.70	1.55	1.68	345300
20210322	1.70	1.73	1.61	1.65	200500
20210323	1.66	1.67	1.53	1.57	447800
20210324	1.61	1.66	1.56	1.60	323000
20210325	1.62	1.62	1.45	1.60	291300
20210326	1.63	1.67	1.61	1.65	253900
20210329	1.62	1.64	1.52	1.54	197300
20210330	1.52	1.58	1.52	1.54	83300
20210331	1.59	1.59	1.55	1.58	95600
20210401	1.60	1.68	1.58	1.61	298700
20210405	1.66	1.66	1.53	1.55	498800
20210406	1.56	1.62	1.50	1.51	438200
20210407	1.51	1.58	1.42	1.46	233300
20210408	1.46	1.50	1.42	1.50	131500
20210409	1.48	1.51	1.45	1.47	182900
20210412	1.46	1.49	1.43	1.46	257500
20210413	1.46	1.51	1.43	1.47	331500
20210414	1.46	1.60	1.46	1.58	171900
20210415	1.58	1.61	1.54	1.59	141200
20210416	1.60	1.62	1.49	1.53	196400
20210419	1.50	1.57	1.50	1.54	88200
20210420	1.54	1.54	1.45	1.50	102800
20210421	1.47	1.53	1.47	1.50	99300
20210422	1.50	1.54	1.45	1.45	118900
20210423	1.46	1.53	1.44	1.53	62300
20210426	1.52	1.59	1.52	1.54	72000
20210427	1.55	1.58	1.51	1.55	145400
20210428	1.55	1.61	1.55	1.61	198400
20210429	1.59	1.68	1.57	1.65	209200
20210430	1.65	1.67	1.58	1.59	103000
20210503	1.58	1.63	1.57	1.59	105000
20210504	1.60	1.63	1.55	1.61	198300
20210505	1.60	1.69	1.59	1.67	248500
20210506	1.65	1.65	1.60	1.62	68600
20210507	1.60	1.61	1.50	1.56	486400
20210510	1.56	1.61	1.50	1.53	300700
20210511	1.48	1.56	1.42	1.54	448800
20210512	1.53	1.61	1.51	1.53	277400
20210513	1.53	1.56	1.46	1.49	244800
20210514	1.50	1.58	1.50	1.57	146300
20210517	1.54	1.70	1.54	1.66	249500
20210518	1.74	1.80	1.71	1.77	531500
20210519	1.78	1.79	1.67	1.77	356400
20210520	1.78	1.78	1.71	1.75	141600
20210521	1.75	1.79	1.71	1.78	145200
20210524	1.80	1.86	1.78	1.79	248400
20210525	1.80	1.80	1.69	1.71	247600
20210526	1.68	1.75	1.66	1.72	208000
20210527	1.75	1.78	1.70	1.75	291800
20210528	1.76	1.76	1.69	1.70	162700
20210601	1.73	1.82	1.72	1.78	735200
20210602	1.86	1.90	1.80	1.88	646900
20210603	1.84	1.95	1.82	1.90	461800
20210604	1.95	1.95	1.83	1.88	339000
20210607	1.87	1.92	1.84	1.91	217000
20210608	1.92	1.96	1.87	1.95	307900
20210609	1.96	1.97	1.89	1.91	144400
20210610	1.94	1.94	1.81	1.90	252800
20210611	1.90	1.91	1.85	1.88	304500
20210614	1.88	1.91	1.83	1.84	176200
20210615	1.86	1.86	1.81	1.85	150600
20210616	1.84	1.97	1.84	1.93	333500
20210617	1.95	1.97	1.77	1.87	410500
20210618	1.74	1.91	1.72	1.82	439700
20210621	1.85	1.97	1.83	1.90	322500
20210622	1.89	1.90	1.82	1.86	292000
20210623	1.87	2.03	1.86	1.93	648600
20210624	1.99	2.17	1.93	2.16	867000
20210625	2.20	2.34	2.09	2.16	1407000
20210628	2.13	2.15	1.90	2.00	983500
20210629	1.96	2.08	1.91	1.93	473200
20210630	1.94	1.99	1.90	1.93	274300
20210701	1.95	2.09	1.95	2.00	463800
20210702	1.99	2.02	1.94	1.98	294700
20210706	2.03	2.04	1.88	1.94	319900
20210707	1.92	1.92	1.78	1.79	427300
20210708	1.78	1.83	1.72	1.77	298600
20210709	1.79	1.90	1.78	1.87	182000
20210712	1.86	1.89	1.82	1.89	125100
20210713	1.87	1.89	1.83	1.84	164100
20210714	1.84	1.88	1.74	1.80	303800
20210715	1.92	1.92	1.68	1.70	264800
20210716	1.70	1.75	1.60	1.62	378200
20210719	1.57	1.64	1.54	1.59	369300
20210720	1.57	1.68	1.57	1.62	210100
20210721	1.66	1.79	1.65	1.72	187700
20210722	1.72	1.74	1.65	1.70	68600
20210723	1.71	1.73	1.66	1.70	158500
20210726	1.69	1.77	1.67	1.70	108100
20210727	1.70	1.70	1.63	1.66	135000
20210728	1.66	1.69	1.60	1.65	193700
20210729	1.63	1.73	1.63	1.73	110900
20210730	1.67	1.73	1.63	1.68	164800
20210802	1.68	1.73	1.58	1.58	90500
20210803	1.59	1.67	1.59	1.65	130300
20210804	1.62	1.62	1.58	1.59	69900
20210805	1.59	1.66	1.58	1.59	118400
20210806	1.70	1.71	1.58	1.65	179200
20210809	1.65	1.72	1.59	1.71	124400
20210810	1.71	1.78	1.66	1.73	208600
20210811	1.71	1.75	1.64	1.73	165200
20210812	1.73	1.75	1.67	1.71	84700
20210813	1.70	1.70	1.61	1.61	84000
20210816	1.63	1.66	1.60	1.64	209200
20210817	1.61	1.66	1.52	1.55	287900
20210818	1.56	1.64	1.55	1.62	179700
20210819	1.55	1.59	1.49	1.55	320900
20210820	1.54	1.64	1.47	1.63	218000
20210823	1.64	1.75	1.64	1.69	294000
20210824	1.70	1.80	1.67	1.76	301600
20210825	1.75	1.83	1.72	1.82	246200
20210826	1.81	1.83	1.74	1.78	123800
20210827	1.78	1.85	1.78	1.81	177000
20210830	1.82	1.86	1.75	1.81	204800
20210831	1.82	1.82	1.78	1.81	86200
20210901	1.77	1.84	1.75	1.78	109700
20210902	1.79	1.87	1.79	1.83	158900
20210903	1.84	1.92	1.83	1.86	127900
20210907	1.91	1.91	1.78	1.82	120900
20210908	1.82	1.84	1.77	1.84	78700
20210909	1.79	1.84	1.78	1.80	27200
20210910	1.85	1.86	1.79	1.83	109100
20210913	1.87	1.92	1.84	1.87	141200
20210914	1.95	1.99	1.78	1.79	212100
20210915	1.85	1.95	1.81	1.95	272300
20210916	1.96	1.99	1.88	1.99	320700
20210917	1.98	1.98	1.91	1.94	164300
20210920	1.95	1.95	1.85	1.91	231100
20210921	1.92	1.94	1.86	1.94	105700
20210922	1.98	1.99	1.91	1.99	281500
20210923	1.99	2.10	1.98	2.07	251400
20210924	2.08	2.12	2.01	2.06	199000
20210927	2.10	2.18	2.05	2.08	560000
20210928	2.11	2.21	2.08	2.16	660000
20210929	2.18	2.23	2.01	2.02	541400
20210930	2.01	2.21	1.98	2.19	327400
20211001	2.22	2.42	2.20	2.28	687200
20211004	2.36	2.70	2.33	2.55	1233200
20211005	2.65	2.85	2.54	2.76	1616300
20211006	2.73	2.99	2.63	2.91	1066600
20211007	2.89	3.13	2.77	3.04	1385200
20211008	3.13	3.25	3.05	3.18	1235600
20211011	3.16	3.42	3.06	3.19	1798500
20211012	3.18	3.18	2.81	2.88	1508600
20211013	2.83	2.91	2.70	2.83	846500
20211014	2.89	3.00	2.84	2.87	586700
20211015	2.84	2.95	2.60	2.61	1056500
20211018	2.62	2.72	2.55	2.57	840600
20211019	2.57	2.61	2.43	2.51	693800
20211020	2.50	2.82	2.49	2.79	807200
20211021	2.79	2.83	2.61	2.64	487500
20211022	2.62	2.69	2.60	2.66	280000
20211025	2.71	2.83	2.69	2.82	560500
20211026	2.87	2.88	2.69	2.77	480900
20211027	2.66	2.76	2.64	2.67	233900
20211028	2.66	2.74	2.59	2.71	218200
20211029	2.73	2.75	2.61	2.67	273500
20211101	2.71	2.75	2.58	2.60	413300
20211102	2.60	2.69	2.57	2.67	410000
20211103	2.64	2.64	2.51	2.57	451700
20211104	2.69	2.69	2.40	2.49	738300
20211105	2.48	2.80	2.48	2.75	520200
20211108	2.85	3.00	2.80	2.95	886600
20211109	3.02	3.10	2.83	3.03	1077300
20211110	3.03	3.09	2.92	3.05	962100
20211111	3.09	3.09	2.94	3.00	811200
20211112	3.03	3.20	3.02	3.17	1108400
20211115	3.19	3.34	3.06	3.33	1022900
20211116	3.34	3.36	3.13	3.31	997100
20211117	3.33	3.59	3.27	3.39	1755300
20211118	3.35	3.48	3.06	3.07	943800
20211119	2.97	3.00	2.76	2.76	1451800
20211122	2.76	2.99	2.72	2.88	740100
20211123	2.88	3.06	2.85	2.88	615500
20211124	2.85	3.05	2.82	2.99	392100
20211126	2.77	2.82	2.59	2.79	695800
20211129	3.00	3.01	2.74	2.79	1149400
20211130	2.75	2.80	2.58	2.68	675200
20211201	2.76	2.85	2.60	2.64	682100
20211202	2.55	2.71	2.51	2.61	587200
20211203	2.68	2.76	2.56	2.62	430300
20211206	2.62	2.74	2.56	2.66	405600
20211207	2.75	2.91	2.72	2.85	531300
20211208	2.85	3.04	2.83	3.00	589300
20211209	3.00	3.02	2.89	2.97	351200
20211210	3.02	3.10	2.90	3.10	391000
20211213	3.11	3.13	2.85	2.88	643200
20211214	2.79	2.94	2.77	2.77	425000
20211215	2.76	2.82	2.63	2.78	493500
20211216	2.83	2.87	2.69	2.71	276900
20211217	2.64	2.71	2.60	2.67	275400
20211220	2.58	2.60	2.47	2.55	446000
20211221	2.64	2.99	2.64	2.95	937200
20211222	2.94	2.95	2.82	2.91	335500
20211223	2.93	2.94	2.82	2.87	325000
20211227	2.90	3.07	2.84	3.07	529600
20211228	3.07	3.14	2.96	2.96	397900
20211229	3.00	3.00	2.91	2.94	317400
20211230	2.95	3.00	2.90	2.95	362800
20211231	2.93	3.01	2.93	3.01	182700
20220103	3.05	3.21	3.03	3.09	788200
20220104	3.11	3.22	3.10	3.14	585600
20220105	3.17	3.23	3.08	3.10	698800
20220106	3.20	3.34	3.10	3.29	982200
20220107	3.35	3.37	3.16	3.18	531100
20220110	3.15	3.18	2.95	3.07	702100
20220111	3.11	3.26	3.07	3.24	505400
20220112	3.29	3.39	3.23	3.35	988400
20220113	3.50	3.50	3.22	3.26	805100
20220114	3.24	3.30	3.17	3.26	503500
20220118	3.35	3.35	3.14	3.25	707900
20220119	3.33	3.34	3.16	3.31	637800
20220120	3.26	3.36	3.12	3.17	762500
20220121	3.06	3.11	2.91	2.98	749100
20220124	2.73	2.85	2.68	2.76	1266800
20220125	2.75	3.03	2.74	2.99	681500
20220126	3.01	3.14	2.99	3.03	1110800
20220127	3.08	3.15	2.84	2.92	627300
20220128	2.97	2.99	2.82	2.96	610300
20220131	2.99	3.02	2.88	2.98	312700
20220201	3.01	3.20	2.99	3.19	816200
20220202	3.21	3.23	3.11	3.18	398200
20220203	3.16	3.31	3.10	3.25	492200
20220204	3.32	3.48	3.30	3.37	547600
20220207	3.29	3.47	3.22	3.40	701800
20220208	3.36	3.40	3.18	3.18	626900
20220209	3.21	3.33	3.14	3.28	438200
20220210	3.24	3.39	3.22	3.27	554600
20220211	3.30	3.41	3.28	3.41	408900
20220214	3.49	3.49	3.29	3.33	512400
20220215	3.25	3.35	3.15	3.28	438300
20220216	3.33	3.39	3.19	3.22	709500
20220217	3.20	3.31	3.17	3.20	317000
20220218	3.19	3.20	3.09	3.15	395900
20220222	3.29	3.34	3.13	3.21	505900
20220223	3.25	3.40	3.22	3.38	661100